{
  "resourceType": "Bundle",
  "id": "bun-example-tw-2",
  "meta": {
    "profile": [
      "https://dccfhirig.mohw.gov.tw/fhir/StructureDefinition/Bundle-dcctr"
    ]
  },
  "identifier": {
    "system": "https://www.cdc.gov.tw/",
    "value": "URN:UVCI:01:TW:10807843F94AEE0EE5093FBC254BD813#B"
  },
  "type": "document",
  "timestamp": "2020-12-27T14:30:00+01:00",
  "entry": [
    {
      "fullUrl": "urn:uuid:30551ce1-5a28-4356-b684-1e639094ad4d",
      "resource": {
        "resourceType": "Composition",
        "id": "Inline-Composition-example-2",
        "meta": {
          "profile": [
            "https://dccfhirig.mohw.gov.tw/fhir/StructureDefinition/Composition-dcctr"
          ]
        },
        "text": {
          "status": "generated",
          "div": "<div xmlns=\"http://www.w3.org/1999/xhtml\"><p><b>Generated Narrative</b></p><div style=\"display: inline-block; background-color: #d9e0e7; padding: 6px; margin: 4px; border: 1px solid #8da1b4; border-radius: 5px; line-height: 60%\"><p style=\"margin-bottom: 0px\">Resource \"Inline-Composition-example-2\" </p><p style=\"margin-bottom: 0px\">Profile: <a href=\"StructureDefinition-Composition-dcctr.html\">CompositionDCCTR</a></p></div><p><b>identifier</b>: id: URN:UVCI:01:TW:10807843F94AEE0EE5093FBC254BD813#B</p><p><b>status</b>: final</p><p><b>type</b>: Laboratory report <span style=\"background: LightGoldenRodYellow; margin: 4px; border: 1px solid khaki\"> (<a href=\"https://loinc.org/\">LOINC</a>#11502-2)</span></p><p><b>date</b>: 2021-07-15 02:30:00+0800</p><p><b>author</b>: <a href=\"#Organization_Inline-Organization-hos-example-2\">See above (urn:uuid:c220e36c-eb67-4fc4-9ba1-2fabc52acec6)</a></p><p><b>title</b>: Taiwan COVID Digital Certificate-Test Results</p><h3>Attesters</h3><table class=\"grid\"><tr><td>-</td><td><b>Mode</b></td><td><b>Party</b></td></tr><tr><td>*</td><td>official</td><td><a href=\"#Organization_Inline-Organization-CDC-example-2\">See above (urn:uuid:45a5c5b1-4ec1-4d60-b4b2-ff5a84a41fd7)</a></td></tr></table></div>"
        },
        "identifier": {
          "system": "https://www.cdc.gov.tw/",
          "value": "URN:UVCI:01:TW:10807843F94AEE0EE5093FBC254BD813#B",
          "period": {
            "start": "2021-07-01",
            "end": "2021-09-01"
          }
        },
        "status": "final",
        "type": {
          "coding": [
            {
              "system": "http://loinc.org",
              "code": "11502-2",
              "display": "Laboratory report"
            }
          ]
        },
        "subject": {
          "reference": "urn:uuid:2b90dd2b-2dab-4c75-9bb9-a355e07401e8"
        },
        "date": "2021-07-15T14:30:00+08:00",
        "author": [
          {
            "reference": "urn:uuid:c220e36c-eb67-4fc4-9ba1-2fabc52acec6"
          }
        ],
        "title": "Taiwan COVID Digital Certificate-Test Results",
        "attester": [
          {
            "mode": "official",
            "party": {
              "reference": "urn:uuid:45a5c5b1-4ec1-4d60-b4b2-ff5a84a41fd7"
            }
          }
        ],
        "section": [
          {
            "title": "Relevant diagnostic tests/laboratory data Narrative",
            "code": {
              "coding": [
                {
                  "system": "http://loinc.org",
                  "code": "30954-2",
                  "display": "Relevant diagnostic tests/laboratory data Narrative"
                }
              ]
            },
            "text": {
              "status": "extensions",
              "div": "<div xmlns=\"http://www.w3.org/1999/xhtml\"><p><b>status</b>: final</p><p><b>code</b>: <span title=\"Codes: {http://snomed.info/sct 840539006}\">COVID-19</span></p><p><b>subject</b>: <a href=\"Patient-pat-example-tw-1.html\">Patient/pat-example-tw-1</a></p><p><b>Date and time of the test sample collection</b>: 2021-07-20T13:03:12+08:00</p><p><b>Date and time of the test report </b>: 2021-07-20T22:00:00+00:00</p><p><b>performer</b>:</p><ul><li><a href=\"Practitioner-pra-example-tw-1.html\">Practitioner/pra-example-tw-1</a></li><li><a href=\"Organization-org-example-tw-3.html\">Organization/org-example-tw-3</a></li></ul><p><b>valueCodeableConcept</b>: <span title=\"Codes: {http://snomed.info/sct 260415000}\">Not detected</span></p><p><b>method</b>: <span title=\"Codes: {https://dccfhirig.mohw.gov.tw/fhir/CodeSystem/covid-19-lab-methods LP6464-4}\">Nucleic acid amplification with probe detection</span></p><p><b>device</b>: <a href=\"Device-dev-example-tw-NAAT.html\">Device/dev-example-tw-NAAT</a></p></div>"
            },
            "entry": [
              {
                "reference": "urn:uuid:efb5bf9f-9610-43c3-9c77-acd102c06c9d"
              },
              {
                "reference": "urn:uuid:a55282de-46cb-47d0-98d7-8e706f294bc5"
              }
            ]
          }
        ]
      }
    },
    {
      "fullUrl": "urn:uuid:2b90dd2b-2dab-4c75-9bb9-a355e07401e8",
      "resource": {
        "resourceType": "Patient",
        "id": "Inline-Patient-example-2",
        "meta": {
          "profile": [
            "https://dccfhirig.mohw.gov.tw/fhir/StructureDefinition/Patient-dcc"
          ]
        },
        "text": {
          "status": "generated",
          "div": "<div xmlns=\"http://www.w3.org/1999/xhtml\"><p><b>Generated Narrative</b></p><div style=\"display: inline-block; background-color: #d9e0e7; padding: 6px; margin: 4px; border: 1px solid #8da1b4; border-radius: 5px; line-height: 60%\"><p style=\"margin-bottom: 0px\">Resource \"Inline-Patient-example-2\" </p><p style=\"margin-bottom: 0px\">Profile: <a href=\"StructureDefinition-Patient-dcc.html\">PatientDCC</a></p></div><p><b>identifier</b>: id: 310942728</p><p><b>name</b>: 王大明(OFFICIAL)</p><p><b>gender</b>: male</p><p><b>birthDate</b>: 1990-01-01</p></div>"
        },
        "identifier": [
          {
            "system": "http://www.boca.gov.tw/",
            "value": "310942728"
          }
        ],
        "name": [
          {
            "use": "official",
            "text": "王大明",
            "family": "WANG",
            "given": [
              "DA-MING"
            ]
          }
        ],
        "gender": "male",
        "birthDate": "1990-01-01"
      }
    },
    {
      "fullUrl": "urn:uuid:efb5bf9f-9610-43c3-9c77-acd102c06c9d",
      "resource": {
        "resourceType": "Observation",
        "id": "Inline-Observation-example-2",
        "meta": {
          "profile": [
            "https://dccfhirig.mohw.gov.tw/fhir/StructureDefinition/Observation-dcctr"
          ]
        },
        "text": {
          "status": "generated",
          "div": "<div xmlns=\"http://www.w3.org/1999/xhtml\"><p><b>Generated Narrative</b></p><div style=\"display: inline-block; background-color: #d9e0e7; padding: 6px; margin: 4px; border: 1px solid #8da1b4; border-radius: 5px; line-height: 60%\"><p style=\"margin-bottom: 0px\">Resource \"Inline-Observation-example-2\" </p><p style=\"margin-bottom: 0px\">Profile: <a href=\"StructureDefinition-Observation-dcctr.html\">ObservationDCCTR</a></p></div><p><b>status</b>: final</p><p><b>code</b>: COVID-19 <span style=\"background: LightGoldenRodYellow; margin: 4px; border: 1px solid khaki\"> (<a href=\"https://browser.ihtsdotools.org/\">SNOMED CT</a>#840539006)</span></p><p><b>subject</b>: <a href=\"#Patient_Inline-Patient-example-2\">See above (urn:uuid:2b90dd2b-2dab-4c75-9bb9-a355e07401e8)</a></p><p><b>effective</b>: 2021-07-20 01:03:12+0800</p><p><b>issued</b>: Jul 20, 2021, 10:00:00 PM</p><p><b>performer</b>: </p><ul><li><a href=\"#Organization_Inline-Organization-hos-example-2\">See above (urn:uuid:c220e36c-eb67-4fc4-9ba1-2fabc52acec6)</a></li><li><a href=\"#Practitioner_Inline-Practitioner-example-2\">See above (urn:uuid:d633060f-4835-45cf-9e98-44c90ef1788b)</a></li></ul><p><b>value</b>: Not detected <span style=\"background: LightGoldenRodYellow; margin: 4px; border: 1px solid khaki\"> (<a href=\"https://browser.ihtsdotools.org/\">SNOMED CT</a>#260415000)</span></p><p><b>method</b>: Nucleic acid amplification with probe detection <span style=\"background: LightGoldenRodYellow; margin: 4px; border: 1px solid khaki\"> (<a href=\"CodeSystem-covid-19-lab-methods.html\">COVID-19 Lab Methods</a>#LP6464-4)</span></p><p><b>device</b>: <a href=\"#Device_Inline-Device-example\">See above (urn:uuid:9061a867-2e85-4122-badd-10443015760f)</a></p></div>"
        },
        "status": "final",
        "code": {
          "coding": [
            {
              "system": "http://snomed.info/sct",
              "code": "840539006",
              "display": "COVID-19"
            }
          ]
        },
        "subject": {
          "reference": "urn:uuid:2b90dd2b-2dab-4c75-9bb9-a355e07401e8"
        },
        "effectiveDateTime": "2021-07-20T13:03:12+08:00",
        "issued": "2021-07-20T22:00:00+00:00",
        "performer": [
          {
            "reference": "urn:uuid:c220e36c-eb67-4fc4-9ba1-2fabc52acec6"
          },
          {
            "reference": "urn:uuid:d633060f-4835-45cf-9e98-44c90ef1788b"
          }
        ],
        "valueCodeableConcept": {
          "coding": [
            {
              "system": "http://snomed.info/sct",
              "code": "260415000",
              "display": "Not detected"
            }
          ]
        },
        "method": {
          "coding": [
            {
              "system": "https://dccfhirig.mohw.gov.tw/fhir/CodeSystem/covid-19-lab-methods",
              "code": "LP6464-4",
              "display": "Nucleic acid amplification with probe detection"
            }
          ]
        },
        "device": {
          "reference": "urn:uuid:9061a867-2e85-4122-badd-10443015760f"
        }
      }
    },
    {
      "fullUrl": "urn:uuid:45a5c5b1-4ec1-4d60-b4b2-ff5a84a41fd7",
      "resource": {
        "resourceType": "Organization",
        "id": "Inline-Organization-CDC-example-2",
        "meta": {
          "profile": [
            "https://dccfhirig.mohw.gov.tw/fhir/StructureDefinition/Organization-dcc"
          ]
        },
        "text": {
          "status": "generated",
          "div": "<div xmlns=\"http://www.w3.org/1999/xhtml\"><p><b>Generated Narrative</b></p><div style=\"display: inline-block; background-color: #d9e0e7; padding: 6px; margin: 4px; border: 1px solid #8da1b4; border-radius: 5px; line-height: 60%\"><p style=\"margin-bottom: 0px\">Resource \"Inline-Organization-CDC-example-2\" </p><p style=\"margin-bottom: 0px\">Profile: <a href=\"StructureDefinition-Organization-dcc.html\">OrganizationDCC</a></p></div><p><b>name</b>: Centers for Disease Control, Ministry of Health and Welfare</p><p><b>address</b>: TW </p></div>"
        },
        "name": "Centers for Disease Control, Ministry of Health and Welfare",
        "address": [
          {
            "country": "TW"
          }
        ]
      }
    },
    {
      "fullUrl": "urn:uuid:c220e36c-eb67-4fc4-9ba1-2fabc52acec6",
      "resource": {
        "resourceType": "Organization",
        "id": "Inline-Organization-hos-example-2",
        "meta": {
          "profile": [
            "https://dccfhirig.mohw.gov.tw/fhir/StructureDefinition/Organization-dcc"
          ]
        },
        "text": {
          "status": "generated",
          "div": "<div xmlns=\"http://www.w3.org/1999/xhtml\"><p><b>Generated Narrative</b></p><div style=\"display: inline-block; background-color: #d9e0e7; padding: 6px; margin: 4px; border: 1px solid #8da1b4; border-radius: 5px; line-height: 60%\"><p style=\"margin-bottom: 0px\">Resource \"Inline-Organization-hos-example-2\" </p><p style=\"margin-bottom: 0px\">Profile: <a href=\"StructureDefinition-Organization-dcc.html\">OrganizationDCC</a></p></div><p><b>identifier</b>: id: 401180014</p><p><b>name</b>: National Taiwan University Hospital</p></div>"
        },
        "identifier": [
          {
            "system": "http://www.nhi.gov.tw",
            "value": "401180014"
          }
        ],
        "name": "National Taiwan University Hospital"
      }
    },
    {
      "fullUrl": "urn:uuid:d633060f-4835-45cf-9e98-44c90ef1788b",
      "resource": {
        "resourceType": "Practitioner",
        "id": "Inline-Practitioner-example-2",
        "text": {
          "status": "generated",
          "div": "<div xmlns=\"http://www.w3.org/1999/xhtml\"><p><b>Generated Narrative</b></p><div style=\"display: inline-block; background-color: #d9e0e7; padding: 6px; margin: 4px; border: 1px solid #8da1b4; border-radius: 5px; line-height: 60%\"><p style=\"margin-bottom: 0px\">Resource \"Inline-Practitioner-example-2\" </p></div><p><b>name</b>: LULU WANG </p></div>"
        },
        "name": [
          {
            "family": "WANG",
            "given": [
              "LULU"
            ],
            "prefix": [
              "Dr."
            ]
          }
        ]
      }
    },
    {
      "fullUrl": "urn:uuid:a55282de-46cb-47d0-98d7-8e706f294bc5",
      "resource": {
        "resourceType": "DocumentReference",
        "id": "Inline-DocumentReference-example-2",
        "meta": {
          "profile": [
            "https://dccfhirig.mohw.gov.tw/fhir/StructureDefinition/DocumentReference-dcc"
          ]
        },
        "text": {
          "status": "generated",
          "div": "<div xmlns=\"http://www.w3.org/1999/xhtml\"><p><b>Generated Narrative</b></p><div style=\"display: inline-block; background-color: #d9e0e7; padding: 6px; margin: 4px; border: 1px solid #8da1b4; border-radius: 5px; line-height: 60%\"><p style=\"margin-bottom: 0px\">Resource \"Inline-DocumentReference-example-2\" </p><p style=\"margin-bottom: 0px\">Profile: <a href=\"StructureDefinition-DocumentReference-dcc.html\">DocumentReferenceDCC</a></p></div><p><b>status</b>: current</p><p><b>category</b>: EU DCC <span style=\"background: LightGoldenRodYellow; margin: 4px; border: 1px solid khaki\"> (<a href=\"CodeSystem-qr-category-usage.html\">QR Category Usage</a>#dcc)</span></p><p><b>authenticator</b>: <a href=\"#Organization_Inline-Organization-mohw-example-2\">See above (urn:uuid:4fea8a10-c8d7-4434-98df-a7fef769576f)</a></p><blockquote><p><b>content</b></p><p><b>format</b>: Serialized QR Content (Details: https://dccfhirig.mohw.gov.tw/fhir/CodeSystem/qr-format code serialized = 'Serialized QR Content', stated as 'Serialized QR Content')</p></blockquote><blockquote><p><b>content</b></p><p><b>format</b>: Image (Details: https://dccfhirig.mohw.gov.tw/fhir/CodeSystem/qr-format code image = 'Image', stated as 'Image')</p></blockquote><blockquote><p><b>content</b></p><p><b>format</b>: PDF version of the QR image (Details: https://dccfhirig.mohw.gov.tw/fhir/CodeSystem/qr-format code pdf = 'PDF version of the QR image', stated as 'PDF version of the QR image')</p></blockquote></div>"
        },
        "status": "current",
        "category": [
          {
            "coding": [
              {
                "system": "https://dccfhirig.mohw.gov.tw/fhir/CodeSystem/qr-category-usage",
                "code": "dcc",
                "display": "EU DCC"
              }
            ]
          }
        ],
        "authenticator": {
          "reference": "urn:uuid:4fea8a10-c8d7-4434-98df-a7fef769576f"
        },
        "content": [
          {
            "attachment": {
              "contentType": "text/plain",
              "data": ""
            },
            "format": {
              "system": "https://dccfhirig.mohw.gov.tw/fhir/CodeSystem/qr-format",
              "code": "serialized",
              "display": "Serialized QR Content"
            }
          },
          {
            "attachment": {
              "contentType": "image/png",
              "url": "https://burni.mohw.gov.tw/resource/7925B4AFEB284CCBD516913666F438A/qrimage"
            },
            "format": {
              "system": "https://dccfhirig.mohw.gov.tw/fhir/CodeSystem/qr-format",
              "code": "image",
              "display": "Image"
            }
          },
          {
            "attachment": {
              "contentType": "application/pdf",
              "url": "https://burni.mohw.gov.tw/resource/7925B4AFEB284CC0BD516913666F438A/qrpdf"
            },
            "format": {
              "system": "https://dccfhirig.mohw.gov.tw/fhir/CodeSystem/qr-format",
              "code": "pdf",
              "display": "PDF version of the QR image"
            }
          }
        ]
      }
    },
    {
      "fullUrl": "urn:uuid:9061a867-2e85-4122-badd-10443015760f",
      "resource": {
        "resourceType": "Device",
        "id": "Inline-Device-example",
        "meta": {
          "profile": [
            "https://dccfhirig.mohw.gov.tw/fhir/StructureDefinition/DeviceNAAT"
          ]
        },
        "text": {
          "status": "generated",
          "div": "<div xmlns=\"http://www.w3.org/1999/xhtml\"><p><b>Generated Narrative</b></p><div style=\"display: inline-block; background-color: #d9e0e7; padding: 6px; margin: 4px; border: 1px solid #8da1b4; border-radius: 5px; line-height: 60%\"><p style=\"margin-bottom: 0px\">Resource \"Inline-Device-example\" </p><p style=\"margin-bottom: 0px\">Profile: <a href=\"StructureDefinition-DeviceNAAT.html\">DeviceNAAT</a></p></div><h3>DeviceNames</h3><table class=\"grid\"><tr><td>-</td><td><b>Name</b></td><td><b>Type</b></td></tr><tr><td>*</td><td>Absology Co., Ltd</td><td>manufacturer-name</td></tr></table></div>"
        },
        "deviceName": [
          {
            "name": "Absology Co., Ltd",
            "type": "manufacturer-name"
          }
        ]
      }
    },
    {
      "fullUrl": "urn:uuid:4fea8a10-c8d7-4434-98df-a7fef769576f",
      "resource": {
        "resourceType": "Organization",
        "id": "Inline-Organization-mohw-example-2",
        "meta": {
          "profile": [
            "https://dccfhirig.mohw.gov.tw/fhir/StructureDefinition/Organization-dcc"
          ]
        },
        "text": {
          "status": "generated",
          "div": "<div xmlns=\"http://www.w3.org/1999/xhtml\"><p><b>Generated Narrative</b></p><div style=\"display: inline-block; background-color: #d9e0e7; padding: 6px; margin: 4px; border: 1px solid #8da1b4; border-radius: 5px; line-height: 60%\"><p style=\"margin-bottom: 0px\">Resource \"Inline-Organization-mohw-example-2\" </p><p style=\"margin-bottom: 0px\">Profile: <a href=\"StructureDefinition-Organization-dcc.html\">OrganizationDCC</a></p></div><p><b>name</b>: Taiwan Ministry of Health and Welfare</p><p><b>address</b>: TW </p></div>"
        },
        "name": "Taiwan Ministry of Health and Welfare",
        "address": [
          {
            "country": "TW"
          }
        ]
      }
    }
  ],
  "signature": {
    "type": [
      {
        "system": "urn:iso-astm:E1762-95:2013",
        "code": "1.2.840.10065.1.12.1.6",
        "display": "Validation Signature"
      }
    ],
    "when": "2021-08-09T07:42:33+10:00",
    "who": {
      "reference": "urn:uuid:4fea8a10-c8d7-4434-98df-a7fef769576f"
    },
    "data": "JbuZIFILUSYF+aYl8kjqjbsk/cZg6rTDexO+RtamBIOUG+742R1LXTraOB63/mb2EzixN1+MyodFp1hLYzOgsg=="
  }
}